+++++++++++++++++++ BEGIN  Test Case CR +++++++++++++++++++
TEST PIA PIB - POA 160-column binary write:
TEST PIC PID - POC 160-column character binary write:
TEST PIE PIF - POG 80-column alphanumeric write:
TEST PIG PIH - POL 80-column alphanumeric character-per-word write:
TEST POA POB - PIA 160-column binary read:
TEST POC POD - PIC 160-column character binary read:
TEST POG POH - PIE 80-column alphanumeric read:
TEST POL POK (sic) - PIG 80-column alphanumeric character-per-word read:

These tests ran as expected.


+++++++++++++++++++ BEGIN  Test Case MT +++++++++++++++++++
TEST A - MRWD, MFR, MBR, MLW, MBSK, MLB, MFSK, MGAP, writing max block, MWIPE - should terminate normally:
TEST B - GAP in unWIPEd area - should fail "Impossible I/O operation":
TEST C - valid WIPE at end of data - should end normally:
TEST D - reading past the end of data - should fail "Impossible I/O operation":
TEST E - attempt to write past PET - should fail "Impossible I/O operation":
TEST F - MW, MWE, MFRE and MBRE - should end normally:
TEST G - WIPE entire tape, leaving it unlabelled - should end normally:
TEST H - writing to ETW - should end normally:
TEST I - MBR at BTW - should LIV:
TEST J - MBSK at BTW - should LIV:
TEST K - MBR after label block, R/W 1-word blocks - should end normally:
TEST L - R/W 32K-word blocks - should end normally:
TEST T - like TEST A but for 7-track decks - should end normally:
TEST TRO - like TEST T but without WPR - should fail:
TEST OUT 2 - should end normally:

These tests ran as expected.


+++++++++++++++++++ BEGIN  Test Case DR +++++++++++++++++++
TEST TDRUM     POA, PIA.
TEST TDRUMR2EM POA, PIB.
TEST TDRUMW2EM POB, PIA.
TEST TDROUTS   11, 12, 13, 14.
TEST TDROUTFAILS   13.
TEST TDROUTFAILS   11, 13.

These tests ran as expected.


+++++++++++++++++++ BEGIN  Test Case FD +++++++++++++++++++
TEST TDISC     POA, PIA, PMA, PMF.
TEST TDISCOR   POA, PIA, PMA, PMF.
TEST TDISCEM   POB, PIA, PMA.
TEST TDISCFH   POC, PIC done.
TEST TDISCFHNS POC, POK, PIC, PIG.
TEST TFDOUTS 41, 42, 43, 44, 45.
TEST TFDOUTFAILS 41 with no discs reserved.
TEST TFDOUTFAILS 44, 45 too many 45s.

These tests ran as expected.


+++++++++++++++++++ BEGIN  Test Case HIG +++++++++++++++++++
The signature of this test should be #6442100001003204. It was as follows:
Digital signature of traced orders = #6442100001003204.
------------------- END OF Test Case HIG -------------------


+++++++++++++++++++ BEGIN  Test Case LOG +++++++++++++++++++
The signature of this test should be #2012100001003204. It was as follows:
Digital signature of traced orders = #2012100001003204.
------------------- END OF Test Case LOG -------------------


+++++++++++++++++++ BEGIN  Test Case DMP +++++++++++++++++++
The signature of this test should be #5132117202617243. It was as follows:
Digital signature of traced orders = #5132117202617243.
------------------- END OF Test Case DMP -------------------


+++++++++++++++++++ BEGIN  Test Case REM +++++++++++++++++++
The signature of this test should be #1361462532433030. It was as follows:
Digital signature of traced orders = #1361462532433030.
------------------- END OF Test Case REM -------------------


+++++++++++++++++++ BEGIN  Test Case DVD +++++++++++++++++++
The signature of this test should be #3165330512763021. It was as follows:
Digital signature of traced orders = #3165330512763021.
------------------- END OF Test Case DVD -------------------


+++++++++++++++++++ BEGIN  Test Case ACK +++++++++++++++++++
The signature of this test should be #4657410657321314. It was as follows:
Digital signature of traced orders = #4657410657321314.
------------------- END OF Test Case ACK -------------------


+++++++++++++++++++ BEGIN  Test Case HLT +++++++++++++++++++

TP0:
===
AEFDBC
|
A
B
C
|
CCC
FACA
DFDC
DBDB
FBCEE
BBBBBBB
AEABAEAB
AEEAEABBB
ADADADADAD
ABCDEABCDEABCDEABCDEABCDEABCDEABCDE
|
  1045|===
The signature of this test should be #6151525720423034. It was as follows:
Digital signature of traced orders = #1053600074412203.
------------------- END OF Test Case HLT -------------------


+++++++++++++++++++ BEGIN  Test Case HKT +++++++++++++++++++

TP0:
===
AEFDBC
|
A
B
C
|
CCC
FACA
DFDC
DBDB
FBCEE
BBBBBBB
AEABAEAB
AEEAEABBB
ADADADADAD
ABCDEABCDEABCDEABCDEABCDEABCDEABCDE
|
  1045|===
The signature of this test should be #6151525720423034. It was as follows:
Digital signature of traced orders = #1053600074412203.
------------------- END OF Test Case HKT -------------------


+++++++++++++++++++ BEGIN  Test Case FLU +++++++++++++++++++

TP0:
===

RAN/EL/000M03S/000M08S  SIZE    297

Propagation of an Impulse into a Viscous-locking Medium



    Delta alpha = 0.1000


    alpha             lambda                lambda.sqrt(2alpha) g

    0.0000             INFINITY             1.00000             1.00000
    0.1000            2.0201~ +0            0.90340             0.73452
    0.2000            1.2812~ +0            0.81029             0.52525
    0.3000            9.2712~ -1            0.71814             0.36101
    0.4000            6.9943~ -1            0.62559             0.24038

    0.5000            5.3160~ -1            0.53160             0.26796
    0.6000            3.9727~ -1            0.43519             0.30384
    0.7000            2.8340~ -1            0.33532             0.34489
    0.8000            1.8242~ -1            0.23075             0.38947
    0.9000            8.9284~ -2            0.11979             0.43642

    1.0000            0.0000                0.00000             0.48394


===

LP0:
===

RAN/EL/008M49S/008M56S===
The signature of this test should be #0613355475443420. It was as follows:
Digital signature of traced orders = #0613355475443420.
------------------- END OF Test Case FLU -------------------


+++++++++++++++++++ BEGIN  Test Case RLT +++++++++++++++++++
The signature of this test should be #3506450617016266. It was as follows:
Digital signature of traced orders = #3506450617016266.
------------------- END OF Test Case RLT -------------------


+++++++++++++++++++ BEGIN  Test Case TO4 +++++++++++++++++++

TP0:
===
TEST A
LABEL F
MLB OK
LABEL B
MLB OK
REWOUND
MLB OK
LABEL F
WROTE L
MLB OK
WROTE L
BSKP OK
MLB OK
MLB OK
MLB OK
BSKP OK
REWOUND
FSKP OK
FSKP OK
FSKP OK
GAP OK
MLB OK
BSKP OK
FSKP OK
BIGW OK
REWOUND
FSKP OK
BIGR OK
REWOUND
FSKP OK
BIGBR OK       
LABEL F
WIPED
MLB OK
GAP OK
FINISH
===
The signature of this test should be #3257037520362447. It was as follows:
Digital signature of traced orders = #3257037520362447.
------------------- END OF Test Case TO4 -------------------


+++++++++++++++++++ BEGIN  Test Case TOX +++++++++++++++++++
The signature of this test should be #5346716617576440. It was as follows:
Digital signature of traced orders = #5346716617576440.
------------------- END OF Test Case TOX -------------------


+++++++++++++++++++ BEGIN  Test Case MTW +++++++++++++++++++

TP0:
===

LINE  18 REL LINE   8 POSITION IDENTIFIER lab
END COMMENT
LINE  24 REL LINE   5 POSITION IDENTIFIER p0
END COMMENT
LINE  32 REL LINE   7 POSITION IDENTIFIER p3
END COMMENT
LINE  46 REL LINE  13 POSITION IDENTIFIER pout
END COMMENT
IDENTIFIER a NOT USED
DECLARED ON LINE   2
IDENTIFIER b NOT USED
DECLARED ON LINE   2
IDENTIFIER c NOT USED
DECLARED ON LINE   2
RAN/EL/000M05S/000M16S  SIZE    613
===

LP0:
===

RAN/EL/006M57S/007M04S===
The signature of this test should be #2374020431503051. It was as follows:
Digital signature of traced orders = #2374020431503051.
------------------- END OF Test Case MTW -------------------


+++++++++++++++++++ BEGIN  Test Case WAB +++++++++++++++++++
The signature of this test should be #6071426761537263. It was as follows:
Digital signature of traced orders = #6071426761537263.
------------------- END OF Test Case WAB -------------------


+++++++++++++++++++ BEGIN  Test Case FLO +++++++++++++++++++
The signature of this test should be #3271342634660173. It was as follows:
Digital signature of traced orders = #3271342634660173.
------------------- END OF Test Case FLO -------------------


+++++++++++++++++++ BEGIN  Test Case 1DH +++++++++++++++++++

LP0:
===
CASE 1 GENERAL DELTAR ON DESK-H;                                                                                     
NODE-RADII     
   0.000        
           1.98           2.04           2.10           2.17           2.23            2.29                                                            
---TIME---TEMPERATURES 
   0.000        
          70.00          70.00          70.00          70.00          70.00           70.00                                                            

              
   0.058        
         161.78         120.89          96.61          83.39          77.12           75.31                                                            
   0.116        
         176.16         154.05         133.94         118.31         108.58          105.32                                                            
   0.174        
         192.72         170.71         153.84         141.87         134.73          132.38                                                            
   0.232        
         205.00         187.75         173.66         163.30         156.99          154.90                                                            
   0.290        
         216.24         201.26         189.35         180.73         175.53          173.81                                                            
   0.348        
         227.25         213.96         203.47         195.90         191.36          189.86                                                            
   0.406        
         235.57         224.50         215.60         209.11         205.19          203.89                                                            
   0.464        
         242.02         232.87         225.51         220.13         216.87          215.79                                                            
   0.522        
         249.00         240.68         234.15         229.47         226.66          225.74                                                            
   0.580        
         255.98         248.28         242.27         237.98         235.41          234.57                                                            
   0.638        
         261.23         254.68         249.45         245.65         243.37          242.61                                                            
   0.696        
         265.35         259.83         255.41         252.20         250.26          249.61                                                            
   0.754        
         270.75         265.22         260.98         258.00         256.23          255.65                                                            
   0.812        
         276.71         271.09         266.80         263.79         262.01          261.44                                                            
   0.870        
         281.07         276.13         272.23         269.42         267.73          267.18                                                            
   0.928        
         284.52         280.23         276.84         274.38         272.90          272.41                                                            
   0.986        
         288.86         284.53         281.22         278.89         277.51          277.06                                                            
   1.044        
         327.91         309.10         296.64         289.11         285.18          283.99                                                            
   1.102        
         346.71         329.83         316.73         307.45         301.96          300.16                                                            
   1.160        
         361.62         345.80         333.50         324.74         319.52          317.81                                                            
   1.218        
         377.30         361.71         349.72         341.24         336.22          334.57                                                            
   1.276        
         392.58         377.37         365.65         357.37         352.47          350.86                                                            
   1.334        
         403.84         390.54         380.05         372.51         367.98          366.49                                                            
   1.392        
         413.89         402.05         392.70         385.98         381.94          380.61                                                            
   1.450        
         421.40         411.46         403.51         397.73         394.24          393.08                                                            
   1.508        
         427.57         419.24         412.55         407.67         404.72          403.74                                                            
   1.566        
         438.16         428.87         421.84         416.95         414.07          413.13                                                            
   1.624        
         448.90         439.19         431.85         426.73         423.72          422.74                                                            
   1.682        
         454.69         446.84         440.56         436.01         433.27          432.36                                                            
   1.740        
         459.61         453.02         447.72         443.87         441.53          440.76                                                            
   1.798        
         468.06         460.69         455.12         451.23         448.95          448.21                                                            
   1.856        
         476.53         468.85         463.04         458.98         456.60          455.83                                                            
   1.914        
         482.63         475.77         470.41         466.59         464.31          463.56                                                            
   1.972        
         488.41         482.08         477.13         473.59         471.48          470.79                                                            
   2.030        
         495.16         488.72         483.79         480.31         478.26          477.58                                                            
   2.088        
         501.79         495.38         490.46         487.01         484.97          484.30                                                            
   2.146        
         507.31         501.38         496.77         493.49         491.53          490.89                                                            
   2.204        
         512.57         507.00         502.66         499.57         497.73          497.13                                                            
   2.262        
         516.23         511.53         507.78         505.07         503.43          502.89                                                            
   2.320        
         519.24         515.28         512.10         509.78         508.38          507.91                                                            
   2.378        
         524.39         519.94         516.57         514.23         512.85          512.40                                                            
   2.436        
         529.52         524.88         521.36         518.91         517.47          517.00                                                            
   2.494        
         533.33         529.13         525.86         523.53         522.14          521.69                                                            
   2.552        
         536.92         533.03         529.99         527.82         526.53          526.10                                                            
   2.610        
         540.93         537.03         534.04         531.92         530.67          530.26                                                            
   2.668        
         544.81         540.98         538.04         535.96         534.73          534.33                                                            
   2.726        
         551.58         546.57         542.91         540.44         539.02          538.56                                                            
   2.784        
         559.08         553.18         548.84         545.89         544.18          543.63                                                            
   2.842        
         560.36         556.59         553.41         551.02         549.55          549.07                                                            
   2.900        
         560.27         558.11         556.12         554.55         553.55          553.22                                                            
   2.958        
         565.96         562.18         559.48         557.68         556.65          556.32                                                            
   3.016        
         572.48         567.67         564.21         561.88         560.54          560.11                                                            
   3.074        
         576.38         572.15         568.85         566.51         565.12          564.67                                                            
   3.132        
         580.02         576.09         573.03         570.84         569.54          569.11                                                            
   3.190        
         583.50         579.80         576.93         574.88         573.66          573.26                                                            
   3.248        
         586.70         583.26         580.58         578.66         577.52          577.15                                                            
   3.306        
         590.82         587.12         584.33         582.38         581.23          580.86                                                            
   3.364        
         595.10         591.23         588.31         586.27         585.07          584.68                                                            
   3.422        
         596.90         594.02         591.65         589.90         588.84          588.49                                                            
   3.480        
         597.69         595.69         593.98         592.68         591.88          591.61                                                            
   3.538        
         600.07         597.85         596.15         594.96         594.26          594.03                                                            
   3.596        
         602.60         600.28         598.53         597.30         596.58          596.35                                                            
   3.654        
         605.28         602.86         601.02         599.75         598.99          598.75                                                            
   3.712        
         608.06         605.54         603.63         602.29         601.51          601.25                                                            
   3.770        
         610.95         608.32         606.33         604.95         604.13          603.87                                                            
   3.828        
         613.95         611.22         609.15         607.71         606.86          606.58                                                            

CASE 2 GENERAL DELTAR TEN DESK-H;                                                                                     
NODE-RADII     
   0.000        
           1.98           2.01           2.04           2.07           2.10           2.14           2.17           2.20           2.23           2.26
           2.29                                                                                                                                        
---TIME---TEMPERATURES 
   0.000        
          70.00          70.00          70.00          70.00          70.00          70.00          70.00          70.00          70.00          70.00
          70.00                                                                                                                                        

              
   0.058        
         162.19         139.00         120.81         106.85          96.34          88.61          83.07          79.24          76.76          75.38
          74.94                                                                                                                                        
   0.116        
         176.14         165.35         154.46         143.96         134.27         125.70         118.47         112.73         108.58         106.09
         105.26                                                                                                                                        
   0.174        
         192.78         181.08         170.73         161.68         153.88         147.31         141.95         137.79         134.83         133.06
         132.47                                                                                                                                        
   0.232        
         205.12         196.20         187.95         180.47         173.85         168.16         163.45         159.76         157.12         155.53
         155.01                                                                                                                                        
   0.290        
         216.45         208.58         201.45         195.09         189.53         184.80         180.90         177.86         175.69         174.39
         173.96                                                                                                                                        
   0.348        
         227.44         220.47         214.17         208.57         203.67         199.51         196.10         193.44         191.55         190.41
         190.04                                                                                                                                        
   0.406        
         235.92         230.11         224.80         220.04         215.86         212.29         209.35         207.06         205.41         204.43
         204.11                                                                                                                                        
   0.464        
         242.35         237.58         233.22         229.30         225.84         222.88         220.44         218.53         217.16         216.34
         216.07                                                                                                                                        
   0.522        
         249.33         244.95         241.01         237.52         234.48         231.90         229.79         228.15         226.98         226.28
         226.04                                                                                                                                        
   0.580        
         256.30         252.25         248.61         245.39         242.60         240.23         238.30         236.80         235.73         235.09
         234.88                                                                                                                                        
   0.638        
         261.67         258.22         255.08         252.28         249.82         247.73         246.01         244.67         243.71         243.14
         242.95                                                                                                                                        
   0.696        
         265.78         262.89         260.26         257.90         255.83         254.06         252.60         251.46         250.64         250.15
         249.99                                                                                                                                        
   0.754        
         271.10         268.18         265.59         263.32         261.36         259.72         258.38         257.35         256.62         256.18
         256.04                                                                                                                                        
   0.812        
         277.05         274.07         271.43         269.13         267.15         265.49         264.15         263.11         262.38         261.94
         261.80                                                                                                                                        
   0.870        
         281.52         278.91         276.55         274.45         272.62         271.07         269.80         268.81         268.10         267.68
         267.54                                                                                                                                        
   0.928        
         284.95         282.71         280.68         278.86         277.26         275.91         274.79         273.92         273.30         272.93
         272.81                                                                                                                                        
   0.986        
         289.24         286.95         284.92         283.14         281.62         280.33         279.29         278.49         277.91         277.57
         277.46                                                                                                                                        
   1.044        
         326.51         315.95         307.47         300.76         295.52         291.50         288.49         286.33         284.88         284.05
         283.78                                                                                                                                        
   1.102        
         346.21         337.30         329.30         322.23         316.12         310.97         306.78         303.55         301.26         299.90
         299.45                                                                                                                                        
   1.160        
         361.14         352.77         345.28         338.66         332.93         328.09         324.14         321.07         318.89         317.59
         317.16                                                                                                                                        
   1.218        
         376.58         368.36         361.04         354.62         349.07         344.41         340.61         337.68         335.59         334.35
         333.94                                                                                                                                        
   1.276        
         391.80         383.78         376.63         370.36         364.95         360.40         356.69         353.83         351.79         350.58
         350.18                                                                                                                                        
   1.334        
         403.70         396.61         390.21         384.53         379.58         375.39         371.95         369.27         367.37         366.23
         365.86                                                                                                                                        
   1.392        
         413.95         407.64         401.93         396.86         392.44         388.69         385.61         383.22         381.52         380.50
         380.16                                                                                                                                        
   1.450        
         421.97         416.62         411.75         407.39         403.57         400.32         397.64         395.55         394.06         393.17
         392.87                                                                                                                                        
   1.508        
         428.44         423.94         419.83         416.15         412.92         410.16         407.89         406.11         404.84         404.08
         403.83                                                                                                                                        
   1.566        
         438.00         433.16         428.88         425.16         421.97         419.30         417.14         415.47         414.29         413.58
         413.35                                                                                                                                        
   1.624        
         448.50         443.44         438.97         435.09         431.76         428.98         426.73         425.00         423.77         423.04
         422.80                                                                                                                                        
   1.682        
         455.42         451.16         447.29         443.83         440.82         438.25         436.14         434.51         433.34         432.64
         432.41                                                                                                                                        
   1.740        
         460.68         457.09         453.81         450.88         448.30         446.11         444.30         442.88         441.87         441.27
         441.07                                                                                                                                        
   1.798        
         468.24         464.40         461.01         458.05         455.51         453.39         451.67         450.34         449.40         448.84
         448.65                                                                                                                                        
   1.856        
         476.52         472.51         468.98         465.90         463.26         461.06         459.27         457.90         456.93         456.35
         456.16                                                                                                                                        
   1.914        
         483.17         479.49         476.20         473.29         470.77         468.64         466.90         465.56         464.60         464.03
         463.84                                                                                                                                        
   1.972        
         489.09         485.70         482.65         479.95         477.62         475.64         474.02         472.77         471.87         471.34
         471.16                                                                                                                                        
   2.030        
         495.57         492.17         489.16         486.51         484.23         482.31         480.76         479.55         478.70         478.19
         478.02                                                                                                                                        
   2.088        
         502.15         498.77         495.77         493.13         490.87         488.97         487.43         486.23         485.39         484.88
         484.72                                                                                                                                        
   2.146        
         507.93         504.76         501.93         499.43         497.26         495.43         493.94         492.79         491.97         491.48
         491.32                                                                                                                                        
   2.204        
         513.29         510.31         507.64         505.28         503.24         501.51         500.11         499.02         498.24         497.78
         497.63                                                                                                                                        
   2.262        
         517.40         514.82         512.49         510.41         508.59         507.04         505.77         504.79         504.08         503.66
         503.52                                                                                                                                        
   2.320        
         520.65         518.47         516.48         514.70         513.13         511.80         510.70         509.85         509.24         508.87
         508.75                                                                                                                                        
   2.378        
         525.22         522.90         520.84         519.05         517.51         516.22         515.18         514.37         513.80         513.46
         513.35                                                                                                                                        
   2.436        
         530.24         527.81         525.66         523.80         522.20         520.87         519.79         518.96         518.37         518.02
         517.90                                                                                                                                        
   2.494        
         534.37         532.12         530.11         528.33         526.79         525.49         524.43         523.61         523.02         522.67
         522.56                                                                                                                                        
   2.552        
         538.07         535.98         534.10         532.44         531.00         529.79         528.79         528.02         527.47         527.15
         527.04                                                                                                                                        
   2.610        
         541.97         539.90         538.06         536.45         535.05         533.88         532.93         532.19         531.67         531.36
         531.25                                                                                                                                        
   2.668        
         545.85         543.82         542.01         540.43         539.06         537.91         536.98         536.26         535.74         535.44
         535.34                                                                                                                                        
   2.726        
         551.87         549.31         547.11         545.22         543.63         542.32         541.27         540.47         539.91         539.58
         539.47                                                                                                                                        
   2.784        
         559.07         556.04         553.41         551.16         549.27         547.70         546.44         545.49         544.81         544.41
         544.28                                                                                                                                        
   2.842        
         561.99         559.82         557.80         555.96         554.34         552.94         551.78         550.87         550.22         549.83
         549.70                                                                                                                                        
   2.900        
         562.48         561.16         559.87         558.66         557.55         556.58         555.75         555.10         554.62         554.34
         554.24                                                                                                                                        
   2.958        
         566.76         564.85         563.20         561.81         560.63         559.67         558.90         558.31         557.89         557.65
         557.56                                                                                                                                        
   3.016        
         572.93         570.47         568.36         566.57         565.06         563.83         562.85         562.11         561.59         561.28
         561.18                                                                                                                                        
   3.074        
         577.42         575.15         573.12         571.34         569.80         568.50         567.44         566.63         566.05         565.71
         565.59                                                                                                                                        
   3.132        
         581.17         579.07         577.18         575.51         574.06         572.84         571.84         571.06         570.51         570.18
         570.07                                                                                                                                        
   3.190        
         584.71         582.72         580.95         579.38         578.02         576.88         575.94         575.21         574.70         574.39
         574.29                                                                                                                                        
   3.248        
         587.97         586.13         584.47         583.01         581.74         580.66         579.79         579.11         578.63         578.34
         578.24                                                                                                                                        
   3.306        
         591.88         589.93         588.22         586.72         585.44         584.37         583.50         582.83         582.36         582.08
         581.98                                                                                                                                        
   3.364        
         596.11         594.07         592.27         590.71         589.37         588.26         587.35         586.66         586.17         585.87
         585.78                                                                                                                                        
   3.422        
         598.44         596.85         595.39         594.07         592.91         591.91         591.09         590.44         589.98         589.71
         589.62                                                                                                                                        
   3.480        
         599.44         598.33         597.27         596.30         595.43         594.68         594.05         593.55         593.19         592.97
         592.90                                                                                                                                        
   3.538        
         601.49         600.32         599.28         598.37         597.58         596.92         596.38         595.96         595.67         595.49
         595.43                                                                                                                                        
   3.596        
         603.98         602.76         601.68         600.74         599.93         599.26         598.71         598.29         597.99         597.82
         597.76                                                                                                                                        
   3.654        
         606.63         605.35         604.22         603.24         602.40         601.70         601.13         600.69         600.39         600.20
         600.14                                                                                                                                        
   3.712        
         609.39         608.06         606.88         605.86         604.98         604.25         603.66         603.20         602.88         602.69
         602.62                                                                                                                                        
   3.770        
         612.26         610.87         609.65         608.58         607.67         606.91         606.29         605.82         605.48         605.28
         605.21                                                                                                                                        
   3.828        
         615.24         613.80         612.52         611.42         610.47         609.67         609.03         608.54         608.19         607.98
         607.91                                                                                                                                        
CASE 3 GENERAL DELTAR TEN SMOOTHED DESK-H;                                                                             
NODE-RADII     
   0.000        
           1.98           2.01           2.04           2.07           2.10           2.14           2.17           2.20           2.23           2.26
           2.29                                                                                                                                        
---TIME---TEMPERATURES 
   0.000        
          70.00          70.00          70.00          70.00          70.00          70.00          70.00          70.00          70.00          70.00
          70.00                                                                                                                                        

              
   0.058        
         129.86         114.47         102.54          93.46          86.68          81.73          78.20          75.77          74.21          73.34
          73.06                                                                                                                                        
   0.116        
         163.34         150.10         138.20         127.70         118.63         111.02         104.84         100.09          96.74          94.74
          94.08                                                                                                                                        
   0.174        
         180.57         169.43         159.29         150.21         142.26         135.49         129.92         125.57         122.47         120.62
         120.00                                                                                                                                        
   0.232        
         194.72         185.16         176.48         168.71         161.91         156.11         151.34         147.62         144.96         143.37
         142.84                                                                                                                                        
   0.290        
         206.93         198.73         191.27         184.61         178.77         173.80         169.70         166.51         164.23         162.86
         162.41                                                                                                                                        
   0.348        
         217.25         210.25         203.88         198.19         193.20         188.94         185.44         182.71         180.75         179.58
         179.20                                                                                                                                        
   0.406        
         226.43         220.35         214.84         209.91         205.61         201.94         198.93         196.58         194.90         193.90
         193.56                                                                                                                                        
   0.464        
         234.42         229.16         224.38         220.13         216.40         213.22         210.61         208.58         207.13         206.26
         205.97                                                                                                                                        
   0.522        
         241.40         236.83         232.69         228.99         225.75         223.00         220.73         218.97         217.71         216.96
         216.71                                                                                                                                        
   0.580        
         247.40         243.45         239.86         236.66         233.86         231.48         229.52         227.99         226.90         226.24
         226.03                                                                                                                                        
   0.638        
         253.44         249.80         246.52         243.62         241.11         238.97         237.23         235.87         234.90         234.33
         234.14                                                                                                                                        
   0.696        
         259.27         255.90         252.87         250.20         247.87         245.91         244.30         243.05         242.16         241.63
         241.46                                                                                                                                        
   0.754        
         264.67         261.55         258.76         256.28         254.14         252.32         250.84         249.68         248.86         248.37
         248.21                                                                                                                                        
   0.812        
         269.64         266.76         264.18         261.90         259.92         258.24         256.87         255.81         255.05         254.60
         254.45                                                                                                                                        
   0.870        
         274.53         271.80         269.36         267.20         265.34         263.77         262.49         261.49         260.78         260.36
         260.22                                                                                                                                        
   0.928        
         279.27         276.67         274.35         272.30         270.52         269.03         267.81         266.87         266.20         265.79
         265.66                                                                                                                                        
   0.986        
         285.18         282.34         279.85         277.69         275.85         274.31         273.07         272.11         271.44         271.04
         270.91                                                                                                                                        
   1.044        
         313.95         305.23         298.16         292.49         288.00         284.50         281.85         279.92         278.60         277.84
         277.60                                                                                                                                        
   1.102        
         339.16         329.43         320.97         313.71         307.57         302.51         298.47         295.39         293.23         291.95
         291.53                                                                                                                                        
   1.160        
         357.58         348.31         340.06         332.80         326.55         321.29         317.02         313.72         311.38         309.98
         309.52                                                                                                                                        
   1.218        
         372.66         364.14         356.49         349.73         343.87         338.90         334.85         331.71         329.47         328.14
         327.70                                                                                                                                        
   1.276        
         386.33         378.46         371.39         365.14         359.71         355.12         351.37         348.46         346.38         345.15
         344.74                                                                                                                                        
   1.334        
         397.66         390.71         384.43         378.85         373.98         369.84         366.45         363.81         361.93         360.80
         360.43                                                                                                                                        
   1.392        
         407.56         401.39         395.82         390.86         386.54         382.86         379.85         377.51         375.83         374.83
         374.50                                                                                                                                        
   1.450        
         417.21         411.52         406.40         401.87         397.93         394.60         391.87         389.75         388.25         387.35
         387.05                                                                                                                                        
   1.508        
         426.33         421.06         416.33         412.14         408.51         405.44         402.93         400.98         399.59         398.76
         398.49                                                                                                                                        
   1.566        
         435.05         430.11         425.68         421.77         418.39         415.52         413.18         411.37         410.08         409.31
         409.06                                                                                                                                        
   1.624        
         443.30         438.66         434.51         430.84         427.66         424.98         422.79         421.09         419.88         419.16
         418.92                                                                                                                                        
   1.682        
         451.27         446.86         442.92         439.45         436.44         433.90         431.84         430.23         429.09         428.41
         428.19                                                                                                                                        
   1.740        
         458.90         454.70         450.96         447.65         444.80         442.39         440.42         438.90         437.82         437.17
         436.96                                                                                                                                        
   1.798        
         466.38         462.33         458.73         455.55         452.81         450.50         448.62         447.16         446.13         445.51
         445.31                                                                                                                                        
   1.856        
         473.64         469.74         466.26         463.20         460.55         458.33         456.51         455.11         454.11         453.52
         453.32                                                                                                                                        
   1.914        
         480.53         476.80         473.46         470.53         467.99         465.85         464.11         462.76         461.80         461.23
         461.04                                                                                                                                        
   1.972        
         487.14         483.56         480.36         477.55         475.12         473.07         471.39         470.10         469.18         468.63
         468.45                                                                                                                                        
   2.030        
         493.46         490.03         486.97         484.27         481.94         479.98         478.38         477.14         476.26         475.73
         475.56                                                                                                                                        
   2.088        
         499.54         496.25         493.31         490.72         488.49         486.60         485.07         483.88         483.04         482.53
         482.37                                                                                                                                        
   2.146        
         505.21         502.09         499.30         496.85         494.72         492.93         491.46         490.33         489.52         489.04
         488.89                                                                                                                                        
   2.204        
         510.57         507.61         504.97         502.64         500.62         498.92         497.53         496.46         495.69         495.24
         495.09                                                                                                                                        
   2.262        
         515.43         512.68         510.22         508.04         506.15         504.56         503.25         502.24         501.52         501.10
         500.95                                                                                                                                        
   2.320        
         519.90         517.35         515.06         513.04         511.28         509.80         508.59         507.64         506.98         506.58
         506.44                                                                                                                                        
   2.378        
         524.31         521.88         519.70         517.78         516.12         514.72         513.58         512.69         512.06         511.69
         511.56                                                                                                                                        
   2.436        
         528.53         526.21         524.14         522.32         520.74         519.41         518.32         517.48         516.88         516.53
         516.41                                                                                                                                        
   2.494        
         532.87         530.58         528.55         526.76         525.23         523.93         522.88         522.07         521.49         521.15
         521.03                                                                                                                                        
   2.552        
         537.19         534.94         532.94         531.18         529.67         528.39         527.36         526.56         525.99         525.66
         525.54                                                                                                                                        
   2.610        
         541.66         539.39         537.38         535.61         534.10         532.83         531.80         531.00         530.44         530.10
         529.99                                                                                                                                        
   2.668        
         546.18         543.90         541.87         540.10         538.58         537.30         536.26         535.46         534.90         534.56
         534.45                                                                                                                                        
   2.726        
         550.61         548.34         546.32         544.56         543.04         541.77         540.73         539.94         539.37         539.03
         538.92                                                                                                                                        
   2.784        
         554.98         552.73         550.73         548.98         547.47         546.21         545.18         544.39         543.82         543.49
         543.38                                                                                                                                        
   2.842        
         559.04         556.88         554.95         553.25         551.79         550.55         549.55         548.77         548.22         547.89
         547.78                                                                                                                                        
   2.900        
         562.88         560.81         558.96         557.33         555.92         554.73         553.77         553.02         552.49         552.17
         552.06                                                                                                                                        
   2.958        
         567.03         564.92         563.05         561.42         560.01         558.84         557.88         557.14         556.62         556.31
         556.21                                                                                                                                        
   3.016        
         571.28         569.15         567.26         565.61         564.19         563.00         562.03         561.29         560.76         560.45
         560.34                                                                                                                                        
   3.074        
         575.38         573.27         571.40         569.76         568.35         567.16         566.20         565.46         564.93         564.61
         564.51                                                                                                                                        
   3.132        
         579.35         577.28         575.44         573.83         572.44         571.27         570.32         569.58         569.06         568.75
         568.65                                                                                                                                        
   3.190        
         583.27         581.23         579.42         577.83         576.46         575.31         574.37         573.65         573.13         572.83
         572.73                                                                                                                                        
   3.248        
         587.11         585.11         583.32         581.76         580.41         579.28         578.36         577.65         577.14         576.84
         576.74                                                                                                                                        
   3.306        
         590.53         588.65         586.97         585.49         584.20         583.12         582.23         581.55         581.06         580.77
         580.67                                                                                                                                        
   3.364        
         593.62         591.88         590.31         588.92         587.72         586.71         585.88         585.23         584.78         584.50
         584.41                                                                                                                                        
   3.422        
         596.19         594.64         593.24         591.99         590.91         589.98         589.23         588.64         588.22         587.97
         587.89                                                                                                                                        
   3.480        
         598.26         596.92         595.71         594.62         593.68         592.87         592.20         591.68         591.31         591.09
         591.02                                                                                                                                        
   3.538        
         600.54         599.25         598.09         597.08         596.20         595.46         594.85         594.38         594.05         593.85
         593.78                                                                                                                                        
   3.596        
         602.79         601.56         600.46         599.49         598.65         597.94         597.37         596.92         596.60         596.41
         596.35                                                                                                                                        
   3.654        
         605.38         604.09         602.95         601.96         601.11         600.40         599.83         599.39         599.07         598.88
         598.82                                                                                                                                        
   3.712        
         608.14         606.80         605.62         604.59         603.71         602.97         602.37         601.92         601.59         601.40
         601.33                                                                                                                                        
   3.770        
         611.03         609.63         608.40         607.33         606.41         605.65         605.03         604.55         604.21         604.01
         603.94                                                                                                                                        
   3.828        
         614.03         612.58         611.30         610.18         609.23         608.43         607.78         607.29         606.93         606.72
         606.65                                                                                                                                        
CASE 4 GENERAL DELTAR TEN IDEALIZED DESK-H;                                                                            
NODE-RADII     
   0.000        
           1.98           2.01           2.04           2.07           2.10           2.14           2.17           2.20           2.23           2.26
           2.29                                                                                                                                        
---TIME---TEMPERATURES 
   0.000        
          70.00          70.00          70.00          70.00          70.00          70.00          70.00          70.00          70.00          70.00
          70.00                                                                                                                                        

              
   0.058        
         129.86         114.47         102.54          93.46          86.68          81.73          78.20          75.77          74.21          73.34
          73.06                                                                                                                                        
   0.116        
         166.36         152.34         139.83         128.87         119.47         111.61         105.26         100.39          96.95          94.91
          94.24                                                                                                                                        
   0.174        
         188.00         175.48         164.19         154.18         145.47         138.08         132.04         127.35         124.01         122.01
         121.35                                                                                                                                        
   0.232        
         206.08         194.96         184.91         175.98         168.19         161.57         156.15         151.93         148.92         147.13
         146.53                                                                                                                                        
   0.290        
         222.20         212.26         203.29         195.32         188.37         182.47         177.63         173.87         171.19         169.58
         169.05                                                                                                                                        
   0.348        
         236.66         227.77         219.75         212.62         206.41         201.14         196.82         193.46         191.06         189.63
         189.15                                                                                                                                        
   0.406        
         249.58         241.64         234.47         228.10         222.55         217.83         213.97         210.97         208.82         207.54
         207.12                                                                                                                                        
   0.464        
         261.15         254.05         247.63         241.94         236.97         232.76         229.30         226.62         224.70         223.56
         223.18                                                                                                                                        
   0.522        
         271.42         265.09         259.37         254.29         249.85         246.09         243.01         240.61         238.90         237.87
         237.54                                                                                                                                        
   0.580        
         280.55         274.90         269.81         265.28         261.33         257.97         255.23         253.09         251.56         250.65
         250.35                                                                                                                                        
   0.638        
         288.51         283.52         279.02         275.00         271.50         268.53         266.09         264.19         262.83         262.02
         261.76                                                                                                                                        
   0.696        
         295.47         291.07         287.09         283.56         280.47         277.84         275.69         274.01         272.82         272.10
         271.86                                                                                                                                        
   0.754        
         301.61         297.73         294.23         291.10         288.38         286.06         284.16         282.68         281.62         280.99
         280.78                                                                                                                                        
   0.812        
         306.99         303.58         300.50         297.75         295.35         293.31         291.63         290.32         289.39         288.84
         288.65                                                                                                                                        
   0.870        
         311.57         308.61         305.93         303.53         301.43         299.65         298.18         297.04         296.22         295.74
         295.58                                                                                                                                        
   0.928        
         315.40         312.86         310.55         308.48         306.68         305.13         303.87         302.88         302.17         301.75
         301.61                                                                                                                                        
   0.986        
         318.69         316.50         314.51         312.73         311.18         309.85         308.76         307.91         307.30         306.94
         306.81                                                                                                                                        
   1.044        
         335.19         329.79         325.36         321.77         318.90         316.63         314.88         313.59         312.71         312.20
         312.03                                                                                                                                        
   1.102        
         360.94         352.28         344.99         338.91         333.93         329.91         326.77         324.41         322.78         321.83
         321.52                                                                                                                                        
   1.160        
         376.93         369.12         362.14         355.99         350.68         346.22         342.59         339.78         337.79         336.61
         336.22                                                                                                                                        
   1.218        
         389.61         382.41         375.95         370.24         365.28         361.09         357.66         355.01         353.12         351.99
         351.62                                                                                                                                        
   1.276        
         401.19         394.53         388.55         383.26         378.68         374.79         371.62         369.16         367.41         366.36
         366.02                                                                                                                                        
   1.334        
         412.03         405.83         400.28         395.36         391.11         387.50         384.56         382.28         380.65         379.68
         379.36                                                                                                                                        
   1.392        
         422.20         416.42         411.23         406.66         402.69         399.33         396.59         394.47         392.96         392.05
         391.76                                                                                                                                        
   1.450        
         431.82         426.40         421.54         417.25         413.53         410.40         407.83         405.85         404.43         403.59
         403.31                                                                                                                                        
   1.508        
         440.95         435.84         431.27         427.23         423.74         420.79         418.38         416.52         415.19         414.40
         414.14                                                                                                                                        
   1.566        
         449.70         444.86         440.52         436.70         433.40         430.61         428.33         426.57         425.32         424.57
         424.32                                                                                                                                        
   1.624        
         458.07         453.47         449.35         445.72         442.58         439.93         437.77         436.10         434.91         434.20
         433.97                                                                                                                                        
   1.682        
         466.04         461.66         457.75         454.30         451.31         448.80         446.74         445.15         444.02         443.35
         443.13                                                                                                                                        
   1.740        
         473.67         469.50         465.76         462.47         459.63         457.23         455.28         453.77         452.69         452.05
         451.84                                                                                                                                        
   1.798        
         481.03         477.03         473.45         470.31         467.59         465.30         463.43         461.98         460.95         460.34
         460.14                                                                                                                                        
   1.856        
         488.12         484.28         480.85         477.83         475.23         473.03         471.24         469.85         468.86         468.28
         468.08                                                                                                                                        
   1.914        
         494.88         491.21         487.93         485.04         482.54         480.44         478.72         477.39         476.45         475.89
         475.70                                                                                                                                        
   1.972        
         501.37         497.85         494.71         491.94         489.55         487.53         485.89         484.61         483.71         483.17
         482.99                                                                                                                                        
   2.030        
         507.64         504.25         501.23         498.57         496.27         494.34         492.76         491.54         490.67         490.15
         489.98                                                                                                                                        
   2.088        
         513.69         510.43         507.52         504.96         502.75         500.88         499.37         498.19         497.36         496.86
         496.70                                                                                                                                        
   2.146        
         519.58         516.42         513.61         511.14         509.00         507.20         505.74         504.61         503.80         503.32
         503.16                                                                                                                                        
   2.204        
         525.29         522.23         519.51         517.12         515.06         513.32         511.90         510.80         510.03         509.56
         509.41                                                                                                                                        
   2.262        
         530.78         527.84         525.21         522.90         520.90         519.22         517.86         516.80         516.04         515.60
         515.45                                                                                                                                        
   2.320        
         536.10         533.26         530.72         528.48         526.55         524.93         523.61         522.59         521.86         521.43
         521.28                                                                                                                                        
   2.378        
         541.31         538.54         536.08         533.91         532.04         530.46         529.18         528.19         527.48         527.06
         526.93                                                                                                                                        
   2.436        
         546.38         543.69         541.29         539.19         537.37         535.84         534.59         533.63         532.94         532.54
         532.40                                                                                                                                        
   2.494        
         551.25         548.65         546.33         544.29         542.53         541.05         539.84         538.91         538.25         537.85
         537.72                                                                                                                                        
   2.552        
         555.96         553.44         551.20         549.23         547.53         546.09         544.92         544.02         543.38         543.00
         542.87                                                                                                                                        
   2.610        
         560.55         558.10         555.93         554.01         552.36         550.97         549.84         548.97         548.35         547.98
         547.85                                                                                                                                        
   2.668        
         564.98         562.62         560.51         558.66         557.06         555.71         554.61         553.76         553.16         552.80
         552.68                                                                                                                                        
   2.726        
         569.33         567.03         564.97         563.17         561.61         560.30         559.24         558.42         557.83         557.48
         557.37                                                                                                                                        
   2.784        
         573.56         571.32         569.32         567.57         566.05         564.78         563.74         562.94         562.37         562.03
         561.92                                                                                                                                        
   2.842        
         577.80         575.59         573.62         571.89         570.41         569.16         568.14         567.36         566.80         566.47
         566.36                                                                                                                                        
   2.900        
         581.99         579.81         577.87         576.17         574.71         573.48         572.48         571.70         571.15         570.83
         570.72                                                                                                                                        
   2.958        
         586.11         583.96         582.06         580.38         578.94         577.73         576.74         575.98         575.44         575.12
         575.01                                                                                                                                        
   3.016        
         590.11         588.01         586.15         584.51         583.09         581.90         580.94         580.19         579.66         579.34
         579.24                                                                                                                                        
   3.074        
         593.82         591.82         590.03         588.46         587.10         585.95         585.01         584.29         583.78         583.47
         583.37                                                                                                                                        
   3.132        
         597.26         595.37         593.67         592.18         590.89         589.80         588.91         588.22         587.73         587.43
         587.34                                                                                                                                        
   3.190        
         600.53         598.73         597.12         595.70         594.48         593.44         592.60         591.94         591.48         591.20
         591.11                                                                                                                                        
   3.248        
         603.57         601.88         600.36         599.03         597.87         596.89         596.09         595.47         595.03         594.77
         594.68                                                                                                                                        
   3.306        
         606.25         604.70         603.31         602.08         601.01         600.10         599.36         598.78         598.37         598.13
         598.05                                                                                                                                        
   3.364        
         608.58         607.19         605.93         604.82         603.85         603.02         602.35         601.82         601.45         601.23
         601.15                                                                                                                                        
   3.422        
         610.65         609.40         608.27         607.27         606.39         605.65         605.04         604.57         604.23         604.03
         603.96                                                                                                                                        
   3.480        
         612.40         611.30         610.31         609.42         608.65         607.99         607.45         607.03         606.73         606.55
         606.49                                                                                                                                        
   3.538        
         614.47         613.37         612.38         611.52         610.78         610.15         609.65         609.26         608.98         608.81
         608.76                                                                                                                                        
   3.596        
         616.65         615.54         614.56         613.69         612.95         612.33         611.83         611.44         611.16         610.99
         610.94                                                                                                                                        
   3.654        
         618.99         617.84         616.82         615.94         615.18         614.54         614.03         613.63         613.35         613.18
         613.13                                                                                                                                        
   3.712        
         621.43         620.24         619.19         618.28         617.49         616.83         616.30         615.89         615.60         615.43
         615.37                                                                                                                                        
   3.770        
         623.96         622.73         621.64         620.69         619.88         619.20         618.65         618.23         617.93         617.75
         617.69                                                                                                                                        
   3.828        
         626.58         625.30         624.18         623.20         622.36         621.66         621.09         620.65         620.34         620.15
         620.09                                                                                                                                        
CASE 5 GENERAL DELTAR DELTAT ONE;                                                                                      
NODE-RADII     
   0.000        
           1.98           2.01           2.04           2.07           2.10           2.14           2.17           2.20           2.23           2.26
           2.29                                                                                                                                        
---TIME---TEMPERATURES 
   0.000        
          70.00          70.00          70.00          70.00          70.00          70.00          70.00          70.00          70.00          70.00
          70.00                                                                                                                                        

              
   0.058        
          73.42          72.36          71.61          71.08          70.72          70.47          70.31          70.20          70.14          70.11
          70.10                                                                                                                                        
   0.116        
          78.48          76.94          75.64          74.56          73.67          72.96          72.40          71.98          71.69          71.53
          71.47                                                                                                                                        
   0.174        
          82.89          81.11          79.56          78.23          77.11          76.19          75.45          74.88          74.49          74.25
          74.18                                                                                                                                        
   0.232        
          87.26          85.31          83.60          82.12          80.87          79.82          78.98          78.34          77.88          77.61
          77.52                                                                                                                                        
   0.290        
          91.65          89.59          87.78          86.21          84.86          83.74          82.83          82.14          81.64          81.35
          81.25                                                                                                                                        
   0.348        
          96.17          94.01          92.11          90.46          89.04          87.86          86.90          86.17          85.65          85.34
          85.24                                                                                                                                        
   0.406        
         100.72          98.50          96.54          94.83          93.37          92.14          91.15          90.39          89.85          89.52
          89.42                                                                                                                                        
   0.464        
         105.31         103.05         101.04          99.29          97.79          96.53          95.52          94.73          94.18          93.85
          93.74                                                                                                                                        
   0.522        
         109.93         107.63         105.60         103.82         102.29         101.01          99.97          99.17          98.61          98.27
          98.16                                                                                                                                        
   0.580        
         114.59         112.26         110.20         108.40         106.85         105.55         104.50         103.69         103.11         102.77
         102.66                                                                                                                                        
   0.638        
         119.23         116.89         114.81         113.00         111.44         110.13         109.07         108.25         107.67         107.33
         107.21                                                                                                                                        
   0.696        
         123.86         121.51         119.43         117.61         116.04         114.73         113.67         112.84         112.26         111.91
         111.80                                                                                                                                        
   0.754        
         128.49         126.14         124.05         122.23         120.66         119.34         118.27         117.45         116.86         116.51
         116.40                                                                                                                                        
   0.812        
         133.13         130.77         128.68         126.85         125.28         123.96         122.89         122.06         121.48         121.13
         121.01                                                                                                                                        
   0.870        
         137.75         135.39         133.31         131.48         129.91         128.59         127.51         126.69         126.10         125.75
         125.64                                                                                                                                        
   0.928        
         142.36         140.01         137.92         136.09         134.52         133.20         132.13         131.31         130.72         130.37
         130.26                                                                                                                                        
   0.986        
         290.61         269.19         248.73         229.80         212.80         198.06         185.82         176.21         169.33         165.21
         163.84                                                                                                                                        
   1.044        
         315.75         297.25         279.84         264.25         250.58         238.89         229.26         221.73         216.34         213.12
         212.05                                                                                                                                        
   1.102        
         341.76         325.44         310.14         296.52         284.64         274.53         266.24         259.78         255.17         252.42
         251.50                                                                                                                                        
   1.160        
         360.14         346.85         334.34         323.11         313.25         304.82         297.86         292.42         288.53         286.20
         285.42                                                                                                                                        
   1.218        
         376.24         365.05         354.54         345.13         336.88         329.84         324.04         319.51         316.27         314.33
         313.68                                                                                                                                        
   1.276        
         392.24         382.32         373.03         364.77         357.56         351.44         346.41         342.50         339.71         338.04
         337.49                                                                                                                                        
   1.334        
         404.43         396.14         388.35         381.38         375.28         370.07         365.78         362.43         360.04         358.60
         358.13                                                                                                                                        
   1.392        
         416.43         409.06         402.15         396.01         390.65         386.11         382.38         379.47         377.40         376.16
         375.75                                                                                                                                        
   1.450        
         426.05         419.77         413.87         408.61         404.01         400.08         396.86         394.35         392.55         391.48
         391.12                                                                                                                                        
   1.508        
         435.55         429.89         424.59         419.88         415.79         412.32         409.48         407.26         405.69         404.74
         404.43                                                                                                                                        
   1.566        
         444.10         439.03         434.29         430.08         426.42         423.32         420.77         418.79         417.38         416.54
         416.26                                                                                                                                        
   1.624        
         452.60         447.88         443.47         439.58         436.20         433.35         431.02         429.21         427.92         427.16
         426.90                                                                                                                                        
   1.682        
         460.14         455.85         451.84         448.29         445.20         442.59         440.46         438.80         437.62         436.91
         436.68                                                                                                                                        
   1.740        
         467.64         463.59         459.81         456.48         453.59         451.16         449.17         447.63         446.53         445.88
         445.66                                                                                                                                        
   1.798        
         474.19         470.50         467.05         463.99         461.34         459.10         457.27         455.84         454.83         454.23
         454.03                                                                                                                                        
   1.856        
         480.69         477.20         473.94         471.06         468.58         466.48         464.77         463.44         462.49         461.93
         461.75                                                                                                                                        
   1.914        
         487.19         483.82         480.68         477.92         475.54         473.53         471.89         470.63         469.73         469.19
         469.01                                                                                                                                        
   1.972        
         493.69         490.40         487.34         484.65         482.33         480.37         478.79         477.56         476.69         476.17
         475.99                                                                                                                                        
   2.030        
         499.71         496.58         493.65         491.08         488.85         486.98         485.45         484.27         483.43         482.93
         482.76                                                                                                                                        
   2.088        
         505.71         502.66         499.81         497.32         495.16         493.34         491.87         490.73         489.92         489.43
         489.27                                                                                                                                        
   2.146        
         511.24         508.34         505.64         503.26         501.20         499.46         498.05         496.95         496.18         495.71
         495.56                                                                                                                                        
   2.204        
         516.74         513.92         511.30         509.00         507.01         505.34         503.97         502.92         502.17         501.72
         501.58                                                                                                                                        
   2.262        
         520.81         518.36         516.06         514.02         512.25         510.74         509.50         508.54         507.85         507.44
         507.30                                                                                                                                        
   2.320        
         524.81         522.55         520.43         518.56         516.94         515.57         514.45         513.57         512.95         512.58
         512.46                                                                                                                                        
   2.378        
         528.90         526.74         524.72         522.95         521.41         520.11         519.06         518.24         517.66         517.31
         517.20                                                                                                                                        
   2.436        
         533.00         530.91         528.95         527.23         525.75         524.50         523.48         522.69         522.13         521.80
         521.69                                                                                                                                        
   2.494        
         537.20         535.12         533.18         531.49         530.02         528.80         527.80         527.03         526.48         526.15
         526.04                                                                                                                                        
   2.552        
         541.40         539.34         537.41         535.73         534.28         533.06         532.07         531.31         530.77         530.44
         530.34                                                                                                                                        
   2.610        
         545.22         543.25         541.41         539.79         538.39         537.21         536.26         535.51         534.99         534.67
         534.57                                                                                                                                        
   2.668        
         549.02         547.09         545.30         543.72         542.37         541.22         540.29         539.57         539.06         538.76
         538.66                                                                                                                                        
   2.726        
         553.01         551.07         549.27         547.69         546.34         545.20         544.27         543.56         543.05         542.75
         542.65                                                                                                                                        
   2.784        
         557.01         555.07         553.27         551.69         550.33         549.19         548.26         547.55         547.04         546.74
         546.64                                                                                                                                        
   2.842        
         560.72         558.85         557.09         555.56         554.23         553.12         552.21         551.51         551.01         550.71
         550.61                                                                                                                                        
   2.900        
         564.42         562.58         560.85         559.34         558.04         556.95         556.06         555.37         554.89         554.60
         554.50                                                                                                                                        
   2.958        
         568.12         566.30         564.59         563.10         561.81         560.73         559.86         559.18         558.70         558.41
         558.32                                                                                                                                        
   3.016        
         571.82         570.01         568.32         566.83         565.56         564.49         563.62         562.94         562.47         562.18
         562.09                                                                                                                                        
   3.074        
         575.33         573.57         571.92         570.47         569.22         568.18         567.32         566.66         566.19         565.92
         565.82                                                                                                                                        
   3.132        
         578.83         577.09         575.47         574.04         572.82         571.79         570.95         570.30         569.84         569.57
         569.48                                                                                                                                        
   3.190        
         582.24         580.53         578.94         577.55         576.35         575.34         574.51         573.88         573.43         573.16
         573.07                                                                                                                                        
   3.248        
         585.64         583.95         582.38         581.01         579.82         578.83         578.02         577.39         576.95         576.68
         576.60                                                                                                                                        
   3.306        
         588.66         587.07         585.58         584.28         583.15         582.19         581.42         580.82         580.39         580.13
         580.05                                                                                                                                        
   3.364        
         591.66         590.12         588.68         587.42         586.33         585.41         584.67         584.09         583.68         583.43
         583.35                                                                                                                                        
   3.422        
         593.80         592.48         591.24         590.13         589.17         588.35         587.68         587.15         586.78         586.56
         586.48                                                                                                                                        
   3.480        
         595.90         594.69         593.56         592.56         591.68         590.95         590.34         589.87         589.54         589.34
         589.27                                                                                                                                        
   3.538        
         597.43         596.41         595.46         594.61         593.86         593.23         592.70         592.29         592.00         591.83
         591.77                                                                                                                                        
   3.596        
         598.93         598.02         597.17         596.41         595.76         595.20         594.74         594.38         594.13         593.98
         593.93                                                                                                                                        

              
===
The signature of this test should be #1167512627473731. It was as follows:
Digital signature of traced orders = #1167512627473731.
------------------- END OF Test Case 1DH -------------------


+++++++++++++++++++ BEGIN  Test Case WALGOL +++++++++++++++++++
TEST walgol FLUID
TEST walgol GPSPRIMES
TEST walgol HANOI
TEST walgol INPUT
TEST walgol MANORBOY
TEST walgol MATMULT
TEST walgol WEEHAAVIE
TEST walgol WHETSTONE
TEST walgol

These tests ran as expected.


+++++++++++++++++++ BEGIN  Test Case KIDS +++++++++++++++++++
TEST kids FLUID
TEST kids GPSPRIMES
TEST kids HANOI
TEST kids INPUT
TEST kids MANORBOYX
TEST kids MATMULT
TEST kids PALSQR
TEST kids PENTOMINO
TEST kids QSORT
TEST kids WEEHAAVIE
TEST kids WHETSTONE
TEST kids ZELLER

These tests ran as expected.


+++++++++++++++++++ BEGIN  Test Case WICH +++++++++++++++++++
TEST wich FLUID
TEST wich GPSPRIMES
TEST wich HANOI
TEST wich INPUT
TEST wich MANORBOYX
TEST wich PALSQR
TEST wich QSORT
TEST wich WHETSTONE
TEST wich ZELLER

These tests ran as expected.


